File: data/ThickFilm.csv
Latest: Wavelength (nm),Run 1: Intensity (rel),Run 2: Intensity (rel),Run 3: Intensity (rel),Run 4: Intensity (rel),Run 5: Intensity (rel),Run 6: Intensity (rel),Run 7: Intensity (rel),Run 8: Intensity (rel),Run 9: Intensity (rel),Run 10: Intensity (rel)
380,0.005,0.005,0.005,0.005,0.005,0.005,0.005,0.005,0.005,0.006
381,0.006,0.006,0.006,0.006,0.006,0.006,0.006,0.006,0.006,0.006
382,0.007,0.006,0.007,0.006,0.007,0.007,0.007,0.007,0.006,0.007
383,0.007,0.007,0.007,0.007,0.007,0.007,0.007,0.007,0.007,0.007
384,0.008,0.008,0.008,0.007,0.007,0.008,0.008,0.008,0.008,0.008
385,0.008,0.009,0.009,0.008,0.009,0.008,0.008,0.009,0.008,0.008
386,0.01,0.01,0.009,0.009,0.01,0.01,0.009,0.009,0.01,0.01
387,0.01,0.01,0.01,0.01,0.01,0.01,0.01,0.01,0.009,0.01
388,0.01,0.01,0.01,0.011,0.01,0.01,0.011,0.01,0.011,0.01
389,0.011,0.011,0.011,0.011,0.011,0.011,0.011,0.011,0.011,0.011
390,0.012,0.012,0.012,0.012,0.012,0.012,0.012,0.012,0.012,0.012
391,0.012,0.012,0.012,0.012,0.012,0.012,0.012,0.012,0.012,0.013
392,0.013,0.013,0.013,0.013,0.012,0.013,0.013,0.013,0.013,0.013
393,0.014,0.014,0.014,0.013,0.014,0.014,0.014,0.014,0.014,0.014
394,0.015,0.014,0.015,0.015,0.015,0.014,0.014,0.015,0.014,0.015
395,0.016,0.015,0.015,0.015,0.015,0.015,0.015,0.016,0.015,0.015
396,0.016,0.016,0.016,0.016,0.016,0.016,0.016,0.016,0.016,0.016
397,0.016,0.017,0.016,0.017,0.017,0.017,0.017,0.017,0.016,0.017
398,0.017,0.017,0.017,0.017,0.017,0.018,0.018,0.017,0.017,0.018
399,0.018,0.018,0.018,0.018,0.018,0.018,0.018,0.018,0.018,0.018
400,0.019,0.019,0.019,0.019,0.019,0.019,0.019,0.019,0.019,0.019
401,0.019,0.02,0.02,0.02,0.02,0.02,0.02,0.019,0.02,0.02
402,0.02,0.02,0.02,0.02,0.02,0.021,0.02,0.02,0.02,0.021
403,0.021,0.021,0.021,0.021,0.021,0.021,0.021,0.021,0.021,0.021
404,0.022,0.021,0.022,0.022,0.022,0.022,0.021,0.021,0.021,0.021
405,0.022,0.022,0.021,0.022,0.022,0.022,0.022,0.022,0.022,0.022
406,0.022,0.022,0.022,0.021,0.022,0.022,0.022,0.022,0.021,0.021
407,0.022,0.022,0.022,0.022,0.022,0.023,0.022,0.022,0.022,0.022
408,0.023,0.022,0.023,0.022,0.022,0.022,0.022,0.023,0.022,0.022
409,0.023,0.022,0.023,0.023,0.023,0.023,0.023,0.023,0.023,0.023
410,0.023,0.023,0.024,0.023,0.023,0.023,0.023,0.023,0.023,0.023
411,0.023,0.023,0.023,0.023,0.023,0.023,0.023,0.023,0.023,0.023
412,0.024,0.024,0.023,0.023,0.024,0.023,0.024,0.024,0.024,0.023
413,0.023,0.023,0.023,0.023,0.023,0.024,0.023,0.024,0.023,0.023
414,0.023,0.023,0.023,0.023,0.023,0.023,0.023,0.023,0.023,0.023
415,0.023,0.022,0.023,0.022,0.022,0.022,0.022,0.023,0.022,0.023
416,0.022,0.023,0.022,0.023,0.022,0.022,0.022,0.022,0.022,0.022
417,0.022,0.022,0.022,0.022,0.022,0.021,0.022,0.022,0.021,0.022
418,0.021,0.021,0.021,0.021,0.021,0.022,0.021,0.021,0.022,0.021
419,0.021,0.021,0.021,0.021,0.021,0.021,0.02,0.021,0.021,0.021
420,0.02,0.02,0.02,0.02,0.02,0.019,0.02,0.02,0.02,0.02
421,0.019,0.019,0.019,0.019,0.019,0.019,0.019,0.019,0.019,0.019
422,0.018,0.019,0.018,0.018,0.019,0.018,0.018,0.018,0.019,0.019
423,0.018,0.018,0.018,0.018,0.018,0.018,0.018,0.018,0.018,0.018
424,0.017,0.017,0.017,0.017,0.017,0.017,0.017,0.017,0.017,0.017
425,0.016,0.017,0.017,0.017,0.017,0.017,0.016,0.017,0.017,0.017
426,0.017,0.017,0.017,0.017,0.017,0.017,0.017,0.017,0.017,0.017
427,0.015,0.015,0.016,0.015,0.015,0.015,0.015,0.015,0.015,0.016
428,0.014,0.015,0.015,0.014,0.015,0.015,0.015,0.015,0.015,0.015
429,0.014,0.014,0.014,0.014,0.014,0.014,0.014,0.014,0.014,0.014
430,0.013,0.014,0.013,0.014,0.013,0.014,0.013,0.014,0.013,0.013
431,0.013,0.013,0.013,0.013,0.012,0.013,0.013,0.013,0.013,0.012
432,0.012,0.012,0.012,0.012,0.012,0.012,0.012,0.012,0.012,0.012
433,0.012,0.011,0.012,0.011,0.011,0.011,0.011,0.011,0.011,0.012
434,0.011,0.011,0.011,0.011,0.011,0.011,0.011,0.011,0.011,0.011
435,0.01,0.01,0.011,0.01,0.01,0.01,0.01,0.01,0.01,0.01
436,0.01,0.01,0.01,0.01,0.01,0.01,0.01,0.01,0.01,0.01
437,0.01,0.01,0.009,0.009,0.01,0.01,0.009,0.01,0.01,0.009
438,0.009,0.009,0.009,0.009,0.009,0.009,0.009,0.01,0.009,0.009
439,0.008,0.009,0.009,0.009,0.009,0.009,0.009,0.009,0.009,0.008
440,0.008,0.008,0.008,0.008,0.008,0.008,0.008,0.008,0.008,0.008
441,0.008,0.008,0.008,0.008,0.008,0.008,0.008,0.008,0.008,0.008
442,0.008,0.008,0.007,0.007,0.008,0.008,0.008,0.007,0.008,0.008
443,0.007,0.007,0.007,0.008,0.007,0.008,0.007,0.008,0.007,0.007
444,0.007,0.007,0.007,0.007,0.007,0.007,0.007,0.008,0.007,0.007
445,0.007,0.008,0.007,0.007,0.007,0.007,0.007,0.007,0.007,0.007
446,0.007,0.006,0.007,0.006,0.006,0.006,0.006,0.006,0.006,0.007
447,0.006,0.006,0.006,0.006,0.006,0.007,0.007,0.006,0.006,0.006
448,0.006,0.006,0.006,0.006,0.006,0.006,0.006,0.006,0.006,0.006
449,0.006,0.006,0.005,0.005,0.006,0.006,0.006,0.006,0.006,0.006
450,0.006,0.005,0.006,0.006,0.005,0.006,0.005,0.006,0.006,0.006
451,0.005,0.005,0.005,0.005,0.006,0.005,0.005,0.006,0.005,0.005
452,0.005,0.005,0.005,0.005,0.005,0.005,0.005,0.005,0.005,0.005
453,0.005,0.005,0.005,0.005,0.005,0.005,0.005,0.005,0.005,0.005
454,0.005,0.005,0.005,0.005,0.005,0.004,0.005,0.005,0.005,0.005
455,0.005,0.005,0.005,0.005,0.005,0.005,0.005,0.005,0.005,0.004
456,0.004,0.005,0.005,0.004,0.004,0.004,0.004,0.004,0.004,0.004
457,0.005,0.005,0.005,0.005,0.004,0.005,0.005,0.005,0.005,0.005
458,0.004,0.004,0.004,0.004,0.004,0.004,0.004,0.004,0.004,0.004
459,0.004,0.004,0.004,0.004,0.004,0.004,0.004,0.004,0.004,0.004
460,0.004,0.004,0.004,0.004,0.004,0.004,0.004,0.004,0.004,0.004
461,0.004,0.004,0.004,0.004,0.004,0.004,0.004,0.004,0.004,0.004
462,0.004,0.004,0.004,0.004,0.004,0.004,0.004,0.004,0.004,0.004
463,0.004,0.004,0.004,0.004,0.003,0.004,0.003,0.004,0.004,0.004
464,0.004,0.003,0.004,0.003,0.004,0.004,0.004,0.004,0.004,0.004
465,0.004,0.004,0.004,0.004,0.004,0.004,0.003,0.004,0.004,0.004
466,0.004,0.004,0.004,0.004,0.004,0.004,0.004,0.004,0.004,0.004
467,0.004,0.004,0.003,0.004,0.004,0.004,0.004,0.004,0.003,0.004
468,0.003,0.003,0.004,0.004,0.004,0.004,0.003,0.004,0.003,0.003
469,0.003,0.003,0.003,0.004,0.004,0.004,0.003,0.004,0.003,0.004
470,0.003,0.004,0.003,0.003,0.003,0.004,0.004,0.003,0.003,0.003
471,0.004,0.003,0.003,0.003,0.004,0.004,0.003,0.003,0.004,0.003
472,0.004,0.004,0.004,0.003,0.004,0.004,0.003,0.004,0.004,0.003
473,0.004,0.004,0.004,0.003,0.003,0.004,0.003,0.004,0.004,0.004
474,0.004,0.004,0.004,0.003,0.004,0.004,0.003,0.004,0.003,0.004
475,0.004,0.004,0.004,0.004,0.004,0.003,0.004,0.004,0.004,0.004
476,0.004,0.005,0.004,0.004,0.004,0.004,0.004,0.004,0.004,0.004
477,0.004,0.004,0.004,0.004,0.004,0.004,0.004,0.004,0.004,0.005
478,0.004,0.004,0.004,0.004,0.004,0.004,0.004,0.004,0.004,0.004
479,0.004,0.004,0.004,0.004,0.004,0.004,0.004,0.004,0.004,0.004
480,0.004,0.004,0.005,0.004,0.004,0.004,0.004,0.004,0.005,0.004
481,0.005,0.005,0.005,0.004,0.005,0.005,0.005,0.005,0.004,0.004
482,0.005,0.005,0.005,0.005,0.005,0.004,0.005,0.005,0.005,0.004
483,0.005,0.005,0.005,0.005,0.005,0.005,0.005,0.005,0.005,0.005
484,0.005,0.005,0.005,0.005,0.005,0.005,0.005,0.005,0.005,0.005
485,0.006,0.006,0.006,0.006,0.006,0.006,0.006,0.006,0.006,0.006
486,0.006,0.006,0.006,0.006,0.006,0.007,0.006,0.006,0.006,0.006
487,0.007,0.007,0.006,0.006,0.006,0.006,0.007,0.006,0.006,0.006
488,0.007,0.007,0.007,0.007,0.007,0.007,0.007,0.007,0.007,0.007
489,0.007,0.007,0.007,0.007,0.007,0.007,0.007,0.007,0.007,0.007
490,0.007,0.007,0.008,0.008,0.008,0.008,0.008,0.008,0.007,0.007
491,0.008,0.008,0.008,0.008,0.008,0.008,0.008,0.008,0.008,0.008
492,0.009,0.009,0.009,0.008,0.008,0.009,0.009,0.008,0.008,0.009
493,0.009,0.009,0.009,0.009,0.009,0.009,0.009,0.009,0.009,0.009
494,0.01,0.01,0.01,0.009,0.009,0.01,0.01,0.01,0.01,0.01
495,0.01,0.01,0.01,0.01,0.01,0.01,0.01,0.01,0.01,0.01
496,0.011,0.01,0.01,0.01,0.01,0.01,0.01,0.01,0.01,0.01
497,0.011,0.011,0.011,0.011,0.011,0.011,0.011,0.011,0.011,0.011
498,0.011,0.012,0.011,0.011,0.011,0.011,0.011,0.011,0.012,0.012
499,0.012,0.012,0.012,0.012,0.012,0.012,0.011,0.012,0.012,0.012
500,0.012,0.012,0.013,0.013,0.012,0.013,0.012,0.013,0.013,0.013
501,0.016,0.016,0.016,0.016,0.016,0.016,0.016,0.016,0.016,0.016
502,0.014,0.014,0.015,0.014,0.014,0.014,0.014,0.014,0.014,0.014
503,0.015,0.014,0.015,0.014,0.015,0.014,0.014,0.015,0.014,0.015
504,0.015,0.016,0.015,0.016,0.015,0.016,0.015,0.016,0.015,0.016
505,0.017,0.017,0.017,0.017,0.017,0.017,0.017,0.017,0.017,0.017
506,0.018,0.018,0.018,0.018,0.018,0.018,0.018,0.018,0.018,0.018
507,0.019,0.019,0.02,0.019,0.019,0.02,0.018,0.019,0.019,0.019
508,0.02,0.02,0.02,0.02,0.02,0.02,0.02,0.02,0.02,0.021
509,0.022,0.022,0.021,0.021,0.021,0.021,0.021,0.021,0.021,0.021
510,0.023,0.023,0.023,0.023,0.023,0.023,0.023,0.023,0.023,0.023
511,0.024,0.024,0.025,0.024,0.024,0.025,0.024,0.024,0.024,0.024
512,0.025,0.026,0.026,0.026,0.026,0.026,0.026,0.026,0.026,0.026
513,0.027,0.028,0.027,0.027,0.027,0.027,0.027,0.028,0.028,0.028
514,0.03,0.029,0.029,0.029,0.029,0.029,0.029,0.029,0.029,0.029
515,0.032,0.032,0.031,0.031,0.032,0.032,0.031,0.031,0.032,0.032
516,0.035,0.035,0.036,0.035,0.035,0.035,0.036,0.035,0.036,0.036
517,0.036,0.035,0.036,0.035,0.035,0.035,0.035,0.036,0.035,0.035
518,0.037,0.037,0.037,0.037,0.037,0.036,0.037,0.037,0.037,0.037
519,0.038,0.038,0.039,0.038,0.038,0.039,0.038,0.038,0.038,0.038
520,0.041,0.041,0.041,0.041,0.041,0.041,0.041,0.041,0.041,0.041
521,0.043,0.043,0.043,0.043,0.044,0.044,0.043,0.043,0.043,0.044
522,0.045,0.045,0.045,0.046,0.045,0.045,0.045,0.045,0.045,0.045
523,0.048,0.049,0.049,0.048,0.049,0.049,0.048,0.048,0.049,0.049
524,0.052,0.051,0.052,0.051,0.051,0.052,0.051,0.052,0.051,0.051
525,0.054,0.055,0.055,0.054,0.054,0.054,0.054,0.055,0.054,0.055
526,0.056,0.056,0.056,0.056,0.056,0.057,0.056,0.057,0.056,0.056
527,0.058,0.059,0.059,0.059,0.059,0.059,0.059,0.059,0.059,0.059
528,0.061,0.061,0.062,0.061,0.061,0.061,0.061,0.061,0.061,0.062
529,0.064,0.065,0.065,0.065,0.064,0.064,0.064,0.065,0.064,0.065
530,0.067,0.066,0.067,0.066,0.066,0.067,0.066,0.066,0.066,0.066
531,0.07,0.071,0.07,0.07,0.069,0.07,0.069,0.07,0.07,0.07
532,0.074,0.074,0.074,0.074,0.074,0.074,0.073,0.074,0.073,0.074
533,0.078,0.078,0.078,0.077,0.078,0.078,0.078,0.078,0.078,0.077
534,0.081,0.081,0.081,0.081,0.082,0.081,0.081,0.082,0.082,0.082
535,0.083,0.083,0.083,0.082,0.083,0.082,0.083,0.082,0.082,0.083
536,0.085,0.084,0.084,0.084,0.084,0.084,0.085,0.084,0.084,0.084
537,0.085,0.086,0.085,0.086,0.086,0.086,0.086,0.086,0.086,0.086
538,0.089,0.09,0.09,0.09,0.09,0.09,0.089,0.091,0.09,0.091
539,0.09,0.09,0.09,0.09,0.09,0.09,0.09,0.09,0.091,0.089
540,0.09,0.09,0.091,0.09,0.09,0.09,0.091,0.091,0.091,0.091
541,0.092,0.092,0.092,0.093,0.092,0.092,0.092,0.093,0.092,0.092
542,0.093,0.092,0.092,0.092,0.092,0.092,0.091,0.091,0.091,0.091
543,0.089,0.089,0.088,0.088,0.089,0.089,0.089,0.089,0.088,0.089
544,0.086,0.084,0.085,0.085,0.085,0.085,0.085,0.085,0.085,0.084
545,0.082,0.082,0.082,0.082,0.082,0.082,0.082,0.082,0.082,0.082
546,0.082,0.082,0.083,0.082,0.083,0.083,0.083,0.083,0.083,0.083
547,0.082,0.081,0.082,0.081,0.082,0.081,0.081,0.082,0.082,0.081
548,0.078,0.078,0.078,0.077,0.077,0.077,0.077,0.077,0.077,0.077
549,0.073,0.073,0.072,0.072,0.072,0.072,0.071,0.072,0.072,0.072
550,0.069,0.069,0.069,0.069,0.069,0.068,0.069,0.069,0.069,0.069
551,0.066,0.066,0.067,0.067,0.067,0.067,0.067,0.067,0.067,0.067
552,0.066,0.066,0.067,0.066,0.066,0.066,0.066,0.065,0.065,0.066
553,0.065,0.066,0.066,0.066,0.066,0.066,0.066,0.065,0.065,0.065
554,0.065,0.065,0.065,0.064,0.064,0.065,0.065,0.065,0.065,0.064
555,0.063,0.063,0.063,0.063,0.063,0.063,0.064,0.063,0.063,0.063
556,0.063,0.064,0.064,0.064,0.064,0.064,0.064,0.064,0.064,0.064
557,0.065,0.065,0.065,0.065,0.064,0.065,0.065,0.065,0.065,0.064
558,0.069,0.068,0.068,0.068,0.068,0.069,0.068,0.068,0.068,0.068
559,0.072,0.071,0.071,0.072,0.071,0.071,0.071,0.071,0.071,0.071
560,0.072,0.072,0.072,0.071,0.071,0.071,0.071,0.07,0.07,0.07
561,0.072,0.072,0.072,0.072,0.072,0.072,0.072,0.071,0.072,0.071
562,0.075,0.076,0.076,0.076,0.075,0.075,0.075,0.076,0.075,0.075
563,0.078,0.079,0.079,0.078,0.079,0.079,0.079,0.079,0.079,0.079
564,0.084,0.084,0.085,0.085,0.085,0.086,0.084,0.085,0.085,0.085
565,0.093,0.094,0.093,0.093,0.093,0.093,0.093,0.094,0.094,0.093
566,0.102,0.102,0.102,0.103,0.103,0.103,0.102,0.102,0.103,0.102
567,0.107,0.108,0.108,0.106,0.106,0.107,0.107,0.108,0.107,0.106
568,0.114,0.114,0.115,0.114,0.114,0.114,0.115,0.114,0.114,0.114
569,0.126,0.126,0.127,0.128,0.128,0.128,0.128,0.128,0.128,0.128
570,0.137,0.137,0.137,0.136,0.138,0.138,0.138,0.139,0.139,0.14
571,0.152,0.151,0.151,0.151,0.152,0.152,0.152,0.152,0.152,0.153
572,0.166,0.165,0.166,0.167,0.167,0.168,0.167,0.166,0.166,0.166
573,0.176,0.176,0.175,0.176,0.176,0.175,0.176,0.177,0.176,0.175
574,0.184,0.185,0.184,0.185,0.185,0.185,0.185,0.185,0.186,0.185
575,0.194,0.195,0.194,0.195,0.195,0.196,0.196,0.195,0.194,0.194
576,0.21,0.21,0.21,0.21,0.211,0.21,0.211,0.211,0.21,0.21
577,0.23,0.23,0.23,0.23,0.23,0.229,0.229,0.229,0.229,0.229
578,0.254,0.254,0.253,0.252,0.252,0.252,0.253,0.252,0.252,0.253
579,0.276,0.274,0.273,0.274,0.273,0.273,0.273,0.271,0.272,0.271
580,0.287,0.288,0.288,0.286,0.286,0.285,0.285,0.281,0.282,0.284
581,0.305,0.304,0.304,0.303,0.304,0.303,0.304,0.304,0.305,0.304
582,0.337,0.336,0.336,0.336,0.336,0.334,0.335,0.335,0.335,0.335
583,0.367,0.367,0.367,0.367,0.365,0.364,0.364,0.364,0.363,0.364
584,0.39,0.39,0.387,0.388,0.385,0.386,0.385,0.385,0.384,0.386
585,0.406,0.404,0.403,0.404,0.403,0.401,0.402,0.399,0.399,0.403
586,0.426,0.425,0.425,0.424,0.424,0.425,0.426,0.421,0.424,0.427
587,0.44,0.441,0.44,0.441,0.443,0.443,0.445,0.444,0.445,0.446
588,0.463,0.463,0.462,0.463,0.461,0.462,0.463,0.464,0.463,0.464
589,0.484,0.484,0.485,0.485,0.485,0.484,0.485,0.488,0.488,0.486
590,0.507,0.508,0.51,0.511,0.511,0.512,0.512,0.514,0.512,0.509
591,0.53,0.532,0.535,0.536,0.537,0.538,0.538,0.538,0.536,0.535
592,0.546,0.545,0.547,0.547,0.55,0.55,0.551,0.551,0.551,0.55
593,0.578,0.579,0.579,0.579,0.581,0.581,0.58,0.58,0.582,0.581
594,0.592,0.591,0.589,0.588,0.588,0.59,0.588,0.593,0.593,0.593
595,0.593,0.591,0.591,0.592,0.591,0.591,0.589,0.593,0.594,0.595
596,0.611,0.611,0.611,0.612,0.611,0.612,0.611,0.614,0.611,0.612
597,0.636,0.635,0.634,0.635,0.635,0.636,0.636,0.639,0.638,0.638
598,0.678,0.677,0.675,0.675,0.677,0.676,0.676,0.674,0.677,0.678
599,0.701,0.699,0.701,0.701,0.704,0.702,0.706,0.702,0.703,0.704
600,0.713,0.713,0.712,0.713,0.715,0.716,0.717,0.712,0.714,0.715
601,0.741,0.741,0.737,0.739,0.741,0.739,0.74,0.735,0.735,0.737
602,0.754,0.749,0.748,0.75,0.749,0.75,0.75,0.751,0.751,0.754
603,0.748,0.744,0.743,0.742,0.743,0.744,0.745,0.746,0.747,0.75
604,0.752,0.75,0.748,0.748,0.748,0.748,0.748,0.746,0.749,0.75
605,0.762,0.763,0.765,0.766,0.764,0.765,0.764,0.762,0.76,0.759
606,0.783,0.784,0.787,0.789,0.788,0.788,0.79,0.789,0.786,0.785
607,0.826,0.825,0.827,0.829,0.829,0.829,0.829,0.827,0.828,0.827
608,0.837,0.837,0.84,0.841,0.841,0.842,0.841,0.844,0.841,0.839
609,0.823,0.826,0.829,0.828,0.83,0.829,0.83,0.837,0.833,0.83
610,0.833,0.834,0.838,0.837,0.837,0.836,0.837,0.841,0.84,0.834
611,0.843,0.843,0.842,0.843,0.843,0.84,0.841,0.849,0.847,0.846
612,0.841,0.84,0.839,0.84,0.84,0.84,0.839,0.85,0.853,0.85
613,0.846,0.846,0.846,0.846,0.846,0.847,0.845,0.851,0.853,0.851
614,0.843,0.843,0.843,0.843,0.84,0.841,0.841,0.844,0.843,0.841
615,0.848,0.85,0.85,0.848,0.845,0.844,0.845,0.85,0.846,0.846
616,0.875,0.872,0.875,0.872,0.872,0.869,0.868,0.871,0.871,0.87
617,0.903,0.905,0.905,0.907,0.906,0.905,0.905,0.905,0.905,0.901
618,0.889,0.889,0.891,0.891,0.892,0.892,0.891,0.889,0.889,0.887
619,0.879,0.878,0.877,0.876,0.876,0.875,0.874,0.87,0.872,0.876
620,0.889,0.888,0.887,0.886,0.886,0.885,0.884,0.881,0.881,0.885
621,0.883,0.882,0.879,0.879,0.877,0.877,0.877,0.877,0.877,0.878
622,0.865,0.865,0.864,0.862,0.862,0.863,0.863,0.864,0.863,0.865
623,0.876,0.878,0.876,0.874,0.876,0.875,0.875,0.88,0.879,0.879
624,0.884,0.883,0.883,0.884,0.884,0.882,0.884,0.886,0.889,0.89
625,0.883,0.88,0.879,0.877,0.878,0.876,0.876,0.88,0.882,0.889
626,0.898,0.895,0.892,0.894,0.892,0.89,0.891,0.89,0.892,0.898
627,0.934,0.932,0.93,0.93,0.927,0.925,0.926,0.924,0.927,0.932
628,0.95,0.949,0.947,0.946,0.945,0.946,0.945,0.942,0.942,0.945
629,0.912,0.913,0.912,0.914,0.914,0.916,0.917,0.913,0.913,0.915
630,0.894,0.895,0.896,0.897,0.9,0.904,0.903,0.901,0.902,0.9
631,0.879,0.88,0.884,0.886,0.889,0.89,0.89,0.889,0.884,0.881
632,0.887,0.889,0.89,0.89,0.89,0.893,0.892,0.884,0.883,0.881
633,0.869,0.871,0.873,0.873,0.871,0.875,0.871,0.869,0.868,0.865
634,0.852,0.852,0.855,0.855,0.855,0.855,0.854,0.859,0.858,0.854
635,0.88,0.882,0.884,0.883,0.886,0.888,0.887,0.893,0.888,0.888
636,0.906,0.909,0.911,0.913,0.914,0.916,0.917,0.916,0.915,0.912
637,0.916,0.918,0.918,0.919,0.92,0.921,0.922,0.921,0.92,0.917
638,0.912,0.912,0.912,0.91,0.912,0.914,0.914,0.914,0.916,0.914
639,0.911,0.911,0.908,0.908,0.907,0.907,0.909,0.908,0.908,0.91
640,0.921,0.919,0.917,0.914,0.913,0.914,0.913,0.916,0.914,0.913
641,0.901,0.9,0.899,0.898,0.895,0.894,0.895,0.895,0.895,0.894
642,0.894,0.894,0.89,0.889,0.887,0.886,0.886,0.885,0.886,0.887
643,0.894,0.889,0.884,0.883,0.882,0.879,0.881,0.879,0.88,0.883
644,0.892,0.889,0.888,0.886,0.885,0.882,0.882,0.881,0.883,0.887
645,0.863,0.861,0.858,0.859,0.857,0.855,0.853,0.85,0.85,0.851
646,0.857,0.856,0.857,0.856,0.855,0.854,0.855,0.85,0.848,0.849
647,0.862,0.863,0.862,0.862,0.863,0.866,0.865,0.869,0.869,0.867
648,0.884,0.886,0.887,0.887,0.887,0.891,0.89,0.892,0.892,0.884
649,0.89,0.893,0.896,0.895,0.894,0.896,0.893,0.896,0.893,0.889
650,0.867,0.87,0.872,0.87,0.87,0.87,0.87,0.871,0.868,0.867
651,0.84,0.837,0.839,0.837,0.837,0.841,0.84,0.837,0.836,0.837
652,0.849,0.845,0.846,0.844,0.847,0.847,0.849,0.848,0.849,0.851
653,0.851,0.852,0.854,0.855,0.856,0.858,0.858,0.862,0.86,0.86
654,0.859,0.859,0.862,0.863,0.866,0.867,0.87,0.873,0.869,0.869
655,0.862,0.863,0.867,0.868,0.872,0.872,0.875,0.872,0.871,0.87
656,0.868,0.868,0.87,0.868,0.871,0.874,0.872,0.871,0.873,0.873
657,0.893,0.892,0.892,0.89,0.892,0.894,0.893,0.894,0.892,0.894
658,0.878,0.879,0.879,0.88,0.882,0.883,0.884,0.885,0.884,0.883
659,0.843,0.845,0.845,0.845,0.85,0.851,0.851,0.853,0.852,0.852
660,0.802,0.804,0.805,0.806,0.809,0.809,0.808,0.811,0.812,0.811
661,0.813,0.813,0.816,0.817,0.818,0.819,0.817,0.822,0.819,0.818
662,0.848,0.847,0.848,0.85,0.849,0.848,0.848,0.847,0.845,0.845
663,0.877,0.877,0.878,0.879,0.878,0.877,0.876,0.874,0.874,0.873
664,0.855,0.856,0.859,0.859,0.858,0.856,0.857,0.854,0.851,0.849
665,0.836,0.837,0.84,0.838,0.839,0.837,0.838,0.832,0.832,0.828
666,0.844,0.843,0.841,0.841,0.839,0.841,0.839,0.832,0.831,0.831
667,0.828,0.825,0.825,0.825,0.824,0.824,0.823,0.818,0.818,0.819
668,0.816,0.817,0.818,0.818,0.818,0.82,0.821,0.82,0.819,0.819
669,0.823,0.825,0.825,0.823,0.824,0.825,0.826,0.823,0.824,0.822
670,0.837,0.837,0.835,0.834,0.833,0.835,0.836,0.836,0.836,0.834
671,0.833,0.834,0.832,0.831,0.831,0.832,0.831,0.832,0.832,0.835
672,0.807,0.805,0.805,0.804,0.804,0.805,0.805,0.806,0.806,0.81
673,0.796,0.797,0.795,0.797,0.799,0.799,0.8,0.796,0.798,0.8
674,0.821,0.822,0.822,0.826,0.825,0.824,0.826,0.826,0.827,0.825
675,0.828,0.83,0.831,0.832,0.833,0.836,0.836,0.843,0.84,0.84
676,0.814,0.816,0.817,0.818,0.819,0.821,0.822,0.828,0.828,0.827
677,0.802,0.804,0.806,0.809,0.809,0.812,0.814,0.82,0.82,0.818
678,0.802,0.803,0.804,0.805,0.806,0.807,0.808,0.812,0.812,0.813
679,0.803,0.803,0.804,0.804,0.805,0.803,0.806,0.805,0.807,0.809
680,0.791,0.789,0.789,0.788,0.79,0.789,0.789,0.79,0.792,0.796
681,0.783,0.784,0.78,0.779,0.776,0.772,0.772,0.776,0.778,0.78
682,0.781,0.777,0.774,0.774,0.769,0.769,0.766,0.77,0.772,0.774
683,0.774,0.776,0.774,0.772,0.773,0.77,0.77,0.77,0.773,0.776
684,0.782,0.782,0.779,0.78,0.778,0.779,0.778,0.785,0.786,0.788
685,0.767,0.766,0.766,0.765,0.766,0.765,0.767,0.774,0.773,0.775
686,0.733,0.731,0.73,0.73,0.73,0.73,0.732,0.734,0.735,0.736
687,0.712,0.711,0.709,0.709,0.711,0.71,0.711,0.711,0.712,0.714
688,0.704,0.705,0.706,0.705,0.706,0.706,0.705,0.71,0.71,0.709
689,0.703,0.705,0.708,0.709,0.707,0.707,0.707,0.715,0.711,0.708
690,0.715,0.717,0.718,0.718,0.719,0.718,0.717,0.724,0.722,0.719
691,0.726,0.725,0.728,0.726,0.727,0.728,0.728,0.728,0.726,0.724
692,0.722,0.721,0.725,0.721,0.72,0.72,0.719,0.719,0.716,0.716
693,0.722,0.72,0.72,0.719,0.718,0.719,0.718,0.719,0.718,0.717
694,0.724,0.724,0.723,0.724,0.722,0.724,0.723,0.724,0.725,0.724
695,0.727,0.724,0.725,0.726,0.725,0.726,0.725,0.723,0.726,0.726
696,0.705,0.704,0.704,0.704,0.705,0.708,0.706,0.705,0.706,0.706
697,0.671,0.671,0.673,0.671,0.672,0.671,0.672,0.676,0.673,0.674
698,0.666,0.666,0.667,0.667,0.666,0.666,0.666,0.666,0.666,0.665
699,0.657,0.656,0.658,0.657,0.654,0.656,0.656,0.654,0.654,0.653
700,0.664,0.666,0.665,0.664,0.663,0.662,0.66,0.659,0.659,0.657
701,0.67,0.67,0.669,0.67,0.67,0.669,0.669,0.669,0.666,0.668
702,0.673,0.673,0.673,0.673,0.673,0.672,0.674,0.668,0.67,0.668
703,0.652,0.652,0.653,0.653,0.653,0.654,0.654,0.649,0.647,0.647
704,0.622,0.623,0.623,0.623,0.624,0.625,0.627,0.624,0.623,0.621
705,0.643,0.643,0.644,0.644,0.647,0.648,0.65,0.646,0.646,0.646
706,0.661,0.658,0.661,0.658,0.661,0.664,0.664,0.658,0.658,0.66
707,0.649,0.648,0.649,0.646,0.648,0.652,0.651,0.65,0.649,0.649
708,0.626,0.627,0.626,0.624,0.627,0.628,0.629,0.631,0.633,0.634
709,0.61,0.608,0.61,0.611,0.612,0.613,0.614,0.619,0.62,0.619
710,0.616,0.612,0.614,0.615,0.617,0.618,0.618,0.622,0.625,0.624
711,0.635,0.634,0.634,0.636,0.637,0.636,0.636,0.643,0.643,0.644
712,0.632,0.632,0.632,0.633,0.635,0.635,0.636,0.64,0.64,0.638
713,0.63,0.632,0.631,0.633,0.634,0.634,0.636,0.636,0.635,0.635
714,0.62,0.623,0.625,0.627,0.626,0.627,0.629,0.627,0.625,0.624
715,0.62,0.622,0.627,0.626,0.627,0.629,0.629,0.63,0.627,0.625
716,0.599,0.602,0.604,0.604,0.607,0.609,0.608,0.615,0.612,0.607
717,0.58,0.58,0.582,0.581,0.581,0.585,0.583,0.587,0.584,0.581
718,0.572,0.572,0.573,0.572,0.574,0.574,0.576,0.574,0.574,0.572
719,0.575,0.574,0.576,0.576,0.576,0.577,0.579,0.58,0.579,0.578
720,0.592,0.591,0.592,0.592,0.592,0.593,0.592,0.592,0.591,0.591
721,0.603,0.602,0.603,0.603,0.603,0.603,0.605,0.603,0.603,0.604
722,0.61,0.612,0.612,0.614,0.614,0.612,0.614,0.615,0.616,0.613
723,0.597,0.599,0.601,0.602,0.602,0.603,0.604,0.608,0.609,0.606
724,0.604,0.607,0.609,0.61,0.61,0.611,0.61,0.615,0.616,0.613
725,0.593,0.593,0.595,0.594,0.596,0.596,0.596,0.599,0.6,0.599
726,0.564,0.566,0.567,0.567,0.567,0.57,0.569,0.571,0.57,0.569
727,0.54,0.542,0.543,0.543,0.542,0.544,0.544,0.548,0.547,0.545
728,0.531,0.531,0.532,0.532,0.533,0.536,0.536,0.54,0.538,0.535
729,0.541,0.543,0.545,0.545,0.545,0.545,0.547,0.548,0.548,0.547
730,0.553,0.552,0.552,0.552,0.553,0.552,0.554,0.553,0.553,0.553
731,0.547,0.547,0.547,0.547,0.547,0.545,0.547,0.547,0.545,0.545
732,0.552,0.553,0.553,0.552,0.55,0.551,0.55,0.552,0.551,0.551
733,0.537,0.537,0.535,0.535,0.534,0.537,0.535,0.537,0.536,0.537
734,0.521,0.521,0.52,0.52,0.518,0.519,0.52,0.523,0.522,0.523
735,0.519,0.518,0.517,0.515,0.514,0.514,0.514,0.519,0.516,0.518
736,0.515,0.514,0.517,0.516,0.514,0.515,0.514,0.514,0.512,0.512
737,0.514,0.514,0.516,0.517,0.517,0.516,0.517,0.515,0.516,0.515
738,0.505,0.505,0.507,0.508,0.508,0.509,0.509,0.512,0.512,0.513
739,0.482,0.483,0.484,0.482,0.483,0.484,0.485,0.489,0.49,0.488
740,0.468,0.468,0.468,0.469,0.468,0.469,0.467,0.471,0.473,0.474
741,0.471,0.471,0.47,0.472,0.47,0.469,0.469,0.471,0.471,0.473
742,0.488,0.486,0.483,0.483,0.482,0.48,0.481,0.48,0.481,0.486
743,0.499,0.495,0.495,0.493,0.491,0.492,0.491,0.49,0.493,0.497
744,0.494,0.493,0.491,0.491,0.491,0.492,0.492,0.491,0.492,0.495
745,0.497,0.496,0.496,0.497,0.496,0.497,0.497,0.497,0.497,0.499
746,0.481,0.481,0.48,0.48,0.481,0.482,0.482,0.483,0.482,0.483
747,0.471,0.471,0.47,0.471,0.47,0.469,0.47,0.472,0.472,0.472
748,0.47,0.469,0.468,0.468,0.465,0.466,0.465,0.468,0.468,0.466
749,0.459,0.458,0.457,0.458,0.457,0.457,0.455,0.457,0.458,0.457
750,0.455,0.456,0.451,0.452,0.45,0.448,0.448,0.45,0.451,0.451
751,0.461,0.46,0.457,0.457,0.456,0.454,0.453,0.454,0.455,0.456
752,0.454,0.454,0.452,0.45,0.449,0.447,0.446,0.446,0.448,0.45
753,0.453,0.453,0.45,0.45,0.447,0.446,0.445,0.442,0.443,0.444
754,0.449,0.447,0.446,0.446,0.443,0.443,0.44,0.437,0.437,0.438
755,0.44,0.44,0.437,0.437,0.435,0.434,0.435,0.429,0.431,0.429
756,0.436,0.435,0.435,0.434,0.432,0.432,0.431,0.428,0.428,0.429
757,0.437,0.438,0.438,0.438,0.437,0.438,0.436,0.432,0.432,0.432
758,0.427,0.427,0.427,0.428,0.428,0.429,0.43,0.427,0.428,0.427
759,0.417,0.419,0.421,0.419,0.421,0.421,0.421,0.42,0.418,0.414
760,0.414,0.417,0.419,0.418,0.417,0.417,0.417,0.416,0.414,0.41
761,0.406,0.411,0.412,0.413,0.411,0.411,0.411,0.41,0.407,0.402
762,0.4,0.403,0.406,0.406,0.404,0.404,0.404,0.404,0.402,0.398
763,0.404,0.407,0.409,0.409,0.408,0.408,0.408,0.408,0.405,0.402
764,0.4,0.402,0.402,0.402,0.402,0.403,0.401,0.4,0.399,0.396
765,0.395,0.395,0.396,0.396,0.395,0.395,0.395,0.392,0.392,0.392
766,0.379,0.379,0.381,0.379,0.379,0.382,0.38,0.377,0.378,0.377
767,0.363,0.363,0.363,0.365,0.364,0.366,0.364,0.364,0.364,0.364
768,0.351,0.352,0.352,0.352,0.354,0.354,0.354,0.359,0.358,0.359
769,0.353,0.353,0.354,0.354,0.356,0.356,0.358,0.362,0.364,0.363
770,0.358,0.357,0.357,0.358,0.359,0.359,0.36,0.364,0.364,0.366
771,0.359,0.359,0.358,0.359,0.36,0.36,0.36,0.361,0.362,0.363
772,0.352,0.353,0.354,0.354,0.354,0.354,0.353,0.356,0.356,0.356
773,0.353,0.354,0.355,0.356,0.356,0.357,0.356,0.36,0.359,0.36
774,0.334,0.336,0.336,0.337,0.339,0.338,0.339,0.343,0.341,0.339
775,0.32,0.321,0.32,0.322,0.322,0.323,0.323,0.328,0.326,0.324
776,0.313,0.316,0.315,0.316,0.317,0.319,0.319,0.322,0.322,0.32
777,0.312,0.313,0.313,0.314,0.315,0.316,0.315,0.318,0.318,0.317
778,0.316,0.315,0.315,0.315,0.315,0.314,0.316,0.318,0.317,0.318
779,0.315,0.315,0.314,0.313,0.312,0.311,0.312,0.31,0.312,0.312
780,0.313,0.312,0.311,0.309,0.309,0.308,0.308,0.304,0.306,0.307
781,0.322,0.32,0.319,0.32,0.319,0.318,0.317,0.313,0.314,0.316
782,0.32,0.32,0.321,0.32,0.32,0.319,0.32,0.316,0.316,0.318
783,0.324,0.324,0.323,0.324,0.325,0.325,0.325,0.322,0.323,0.323
784,0.313,0.313,0.315,0.315,0.315,0.315,0.316,0.312,0.313,0.314
785,0.314,0.314,0.315,0.314,0.314,0.314,0.314,0.312,0.312,0.313
786,0.311,0.313,0.313,0.312,0.312,0.311,0.31,0.309,0.308,0.31
787,0.31,0.31,0.308,0.308,0.308,0.308,0.307,0.307,0.308,0.309
788,0.305,0.306,0.306,0.307,0.305,0.305,0.305,0.305,0.305,0.304
789,0.305,0.304,0.305,0.303,0.304,0.304,0.303,0.304,0.303,0.302
790,0.302,0.303,0.304,0.303,0.304,0.303,0.303,0.301,0.3,0.3
791,0.308,0.307,0.308,0.308,0.308,0.308,0.307,0.305,0.303,0.304
792,0.312,0.312,0.313,0.313,0.311,0.311,0.312,0.306,0.306,0.306
793,0.307,0.307,0.307,0.308,0.308,0.309,0.309,0.304,0.304,0.303
794,0.29,0.29,0.291,0.291,0.29,0.29,0.289,0.289,0.287,0.286
795,0.278,0.277,0.278,0.278,0.277,0.277,0.276,0.276,0.273,0.272
796,0.286,0.287,0.286,0.287,0.285,0.284,0.284,0.282,0.281,0.278
797,0.292,0.293,0.292,0.292,0.291,0.291,0.291,0.288,0.286,0.286
798,0.298,0.299,0.3,0.299,0.298,0.297,0.297,0.295,0.295,0.295
799,0.303,0.304,0.306,0.302,0.302,0.301,0.302,0.3,0.301,0.3
800,0.308,0.308,0.308,0.307,0.307,0.306,0.306,0.304,0.304,0.305